Folder: XAFSplots

File: Cu.dat
# XDI/1.0 Hephaestus/0.9.26
# Element.edge:                  K
# Element.symbol:                Cu
# Column.1:                      energy eV
# Column.2:                      xmu
# Column.3:                      bkg
# Column.4:                      pre_edge
# Column.5:                      post_edge
# Column.6:                      der
# Column.7:                      sec
# Column.8:                      i0
# Column.9:                      chi(e)
# Athena.e0:                     8977.97
# Athena.eshift:                 0
# Athena.rbkg:                   1
# Athena.importance:             1
# Athena.standard:               None
# Athena.bkg_kweight:            2
# Athena.edge_step:              1.51123
# Athena.fixed_step:             no
# Athena.pre_edge_range:         -150.000 -30.000
# Athena.pre_edge_line:          4.168335 - 0.000381749 * E
# Athena.normalization_range:    100.000 1000.000
# Athena.post_edge_polynomial:   31.8597 - 0.00560643 * E + 2.57145e-07 * E^2 + 0 * E^3
# Athena.spline_range_energy:    0.000 1234.435
# Athena.clamps:                 0 24
# Athena.spline_range_k:         0.000 18.000
# Athena.kweight:                1
# Athena.window:                 hanning
# Athena.phase_correction:       no
# Athena.k_range:                3.000 17.000
# Athena.dk:                     1
# Athena.r_range:                1 3
# Athena.dr:                     0.0
# Athena.window:                 hanning
# Athena.plot_multiplier:        1
# Athena.y_offset:               0
# ///
#------------------------
#   e         xmu        bkg        pre_edge        post_edge        der        sec        i0        chie
  8774.1       0.838252       0.838252       0.818827        2.46457      -0.00189691   7.29556e-05    330343.00        0.0000000
  8864.26       0.783945       0.783945       0.78441        2.36803      -0.000425433   1.90631e-06    312141.00        0.0000000
  8935.37       0.756748       0.756748       0.757265        2.29484      -8.17958e-05  -0.000330452    304120.00        0.0000000
  8939.79       0.755488       0.755488       0.755576        2.29037      -0.000322448   9.40517e-05    302956.00        0.0000000
  8944.09       0.754465       0.754465       0.753933        2.28603      -0.000240364  -9.5672e-05    303752.00        0.0000000
  8948.44       0.753706       0.753706       0.752273        2.28166       0.000127403   0.000291976    303122.00        0.0000000
  8952.8       0.753478       0.753478       0.750611        2.27729       7.37868e-05  -0.000293933    302460.00        0.0000000
  8957.16       0.753656       0.753656       0.748947        2.27293       3.78645e-05  -8.94155e-05    301628.00        0.0000000
  8961.48       0.755321       0.755321       0.747298        2.26861       0.000302519  -0.00105967    300962.00        0.0000000
  8965.84       0.758338       0.758338       0.745631        2.26426       0.00106819  -0.000146327    300217.00        0.0000000
  8970.17       0.767119       0.767119       0.743979        2.25996       0.00321749   0.00170799    299234.00        0.0000000
  8974.55       0.806852       0.806852       0.742309        2.25562       0.0247165   0.0111713    295697.00        0.0000000
  8978.88        1.42438        1.22404       0.740654        2.25133       0.0883815  -0.133759        298349.00       0.13257
  8983.22        1.50203        1.71145       0.738996        2.24704       0.0669554  -0.00769584    297390.00      -0.138575
  8987.57        1.84567        1.98057       0.737338        2.24276       0.120181       0.00770549    296601.00      -0.089266
  8992        2.28285        2.09943       0.735644        2.2384       0.00735828  -0.0595437    295658.00       0.121376
  8996.27        2.12753        2.13135       0.734015        2.23421      -0.0170093   0.0215439    293609.00      -0.00252512
  9000.63        2.2883        2.14235       0.732352        2.22995       0.0423621  -0.0374723    293922.00       0.0965769
  9004.99        2.17101        2.15157       0.730686        2.22569      -0.0371402   0.0129939    293367.00       0.0128687
  9009.4        2.05407        2.15929       0.729003        2.22139      -0.00736094   0.0133127    292327.00      -0.0696305
  9018.32        2.19542        2.17053       0.725597        2.21273       0.0251459   0.000767227    290705.00       0.0164675
  9029.94        2.15912        2.17774       0.721163        2.20152      -0.0238818   0.00352151    286485.00      -0.01232
  9043.13        2.12276        2.17831       0.716128        2.18887      -0.0023853   0.00129261    286664.00      -0.0367582
  9057.9        2.19483        2.17313       0.710489        2.17481       0.00904422  -0.00095192    284358.00       0.0143595
  9074.14        2.26794        2.16411       0.704288        2.15948      -0.0141701  -0.00349204    281785.00       0.0687039
  9092        2.04995        2.15136       0.697471        2.14278      -0.0140433   0.000391119    278837.00      -0.0671042
  9111.36        2.1368        2.13512       0.69008        2.12486       0.00239821  -0.00211711    275314.00       0.00110601
  9132.24        2.28678        2.11601       0.682108        2.10575      -0.00436987  -0.00221827    273562.00       0.113003
  9154.71        1.93434        2.09506       0.67353        2.08543      -0.0123988   0.00310125    271015.00      -0.106351
  9178.7        2.10808        2.07353       0.664372        2.06403      -0.00432111  -0.000761375    267784.00       0.0228631
  9204.28        2.12767        2.05135       0.654606        2.04154       0.0120058  -0.00128828    259818.00       0.0505047
  9231.3        1.96289        2.02832       0.644294        2.01815      -0.00787517   0.00118919    261997.00      -0.0432936
  9259.95        1.97009        2.00374       0.633355        1.99375       0.0021769   0.000367474    258662.00      -0.0222659
  9290.09        2.02227        1.97704       0.621849        1.96854       0.00131719  -0.000125115    254618.00       0.0299271
  9321.79        1.92534        1.94762       0.609748        1.94254       0.000641703   0.000200905    248241.00      -0.0147447
  9355.08        1.89168        1.91596       0.59704        1.91578       0.000734074   6.94497e-05    247994.00      -0.0160668
  9389.85        1.91342        1.88308       0.583766        1.88844      -9.78599e-05  -5.30579e-05    244587.00       0.0200768
  9426.18        1.84393        1.85009       0.569897        1.86054       3.27499e-05   0.000133072    240546.00      -0.0040783
  9464.06        1.80913        1.81854       0.555438        1.83217      -0.000672155  -7.04518e-05    236221.00      -0.00622569
  9503.56        1.81599        1.78965       0.540358        1.80338       0.000518461  -0.000107058    232503.00       0.0174253
  9544.48        1.75477        1.76334       0.524736        1.77439      -0.000680528   3.48378e-05    227884.00      -0.00567037
  9586.96        1.72222        1.73878       0.508521        1.74521      -0.000902478   7.10701e-05    220022.00      -0.010955
  9631.02        1.70968        1.71501       0.491699        1.71593      -0.000451429  -5.98388e-05    221353.00      -0.00352927
  9676.62        1.70013        1.69086       0.474293        1.68667      -0.00125455   0.000110602    219337.00       0.00613759
  9723.78        1.66686        1.66513       0.456289        1.65754      -0.000559073   2.40977e-05    216391.00       0.00114431
  9772.44        1.63969        1.63757       0.437711        1.62868      -0.000524988   2.6564e-05    213106.00       0.00140219
  9822.65        1.60645        1.60802       0.418545        1.60018      -0.00104465   8.74096e-06    209643.00      -0.00103611
  9874.44        1.57219        1.57628       0.398773        1.57214      -0.000485954  -3.89714e-06    206364.00      -0.00270695
  9927.75        1.54178        1.54225       0.378422        1.54472      -0.000578836  -1.14639e-05    203851.00      -0.000307393
  9982.63        1.50755        1.50619       0.357474        1.51802      -0.000723995  -5.45407e-06    201281.00       0.000897825
  10038.990        1.47148        1.47009       0.335958        1.4922      -0.000570153   4.75767e-06    197360.00       0.000917433
  10097.010        1.44004        1.4364       0.313809        1.46734      -0.000563281   2.52768e-06    191362.00       0.00241287
  10156.430        1.40647        1.40821       0.291125        1.44367      -0.000528872  -8.79042e-07    189501.00      -0.00115276
  10217.480        1.37322        1.37322       0.267819        1.42124      -0.000508272   3.31127e-06    184433.00        0.0000000
  10280.080        1.34174        1.34174       0.243922        1.40023      -0.000525397  -2.02578e-06    180294.00        0.0000000
  10344.220        1.30774        1.30774       0.219436        1.3808      -0.000559961   2.3176e-06    177202.00        0.0000000
  10409.770        1.27475        1.27475       0.194413        1.36312      -0.000485584  -1.06327e-07    175052.00        0.0000000
  10477.010        1.24215        1.24215       0.168744        1.34729      -0.00047257  -2.07985e-06    172480.00        0.0000000
  10545.730        1.20843        1.20843       0.14251        1.33351      -0.000498904  -1.97287e-06    170482.00        0.0000000
  10616.060        1.17475        1.17475       0.115662        1.32192      -0.000478144  -1.19852e-06    166704.00        0.0000000
  10687.840        1.14103        1.14103       0.0882597    1.31271      -0.00048413   1.52667e-07    161777.00        0.0000000
  10761.240        1.10721        1.10721       0.0602393    1.30604      -0.000464138   4.24216e-07    155059.00        0.0000000
  10836.120        1.07373        1.07373       0.0316539    1.30209      -0.000421594  -5.93664e-07    148350.00        0.0000000
  10912.590        1.04036        1.04036       0.00246153    1.30103      -0.000425055   1.73298e-06    142593.00        0.0000000
  10990.550        1.00781        1.00781      -0.0272996    1.30305      -0.000419594  -5.35644e-07    138993.00        0.0000000
  11070.120       0.975603       0.975603      -0.0576754    1.30833      -0.000414202   8.8009e-07    133856.00        0.0000000
  11151.280       0.942525       0.942525      -0.0886582    1.31707      -0.000391258   1.07952e-06    131328.00        0.0000000
  11233.860       0.909957       0.909957      -0.120183        1.32944      -0.000399947   1.16648e-06    127793.00        0.0000000
  11318.040       0.877966       0.877966      -0.152319        1.34566      -0.00038024   1.08825e-06    124845.00        0.0000000
  11365.490       0.860642       0.860642      -0.170433        1.3564      -0.00035282   2.46159e-06    124252.00        0.0000000